Folder: fds/Verification/Pyrolysis

Note: Verification/README.md
# FDS Verification

The folders above contain the FDS verification input files that are run each night by the firebot script contained in the repository [firemodels/bot](https://github.com/firemodels/bot). Detailed instructions for running and processing the verification cases are found in the wiki [FDS Verification Process](https://github.com/firemodels/fds/wiki/FDS-Verification-Process).

For those making substantial changes to the FDS source code, it is a good idea to run the verification cases in debug mode for a few time steps to quickly identify easy-to-make and easy-to-fix bugs, like array overshoots and divide by zeros. To do this, follow these steps:
1. Compile the debug versions of FDS, with and without OpenMP.
2. cd to the `Verification` folder and do a `git clean -dxf` which will erase all uncommitted files within `Verification` and its subfolders, including old output files. Do not do this if there are files that you have not yet committed. Save these somewhere else.
3. cd to the `scripts` subfolder and issue the command `./Run_FDS_Cases.sh -m 2 -d -q firebot`. The `-m` option instructs FDS to only run the cases for 2 time steps. The `-d` option tells FDS to use the debug version of FDS. The `-q` option is the queue to use. At NIST, we use the `firebot` queue for this kind of quick testing.
4. cd back up to the `Verification` folder and issue the command `grep forrtl */*err` which will search all the diagnostic output files for Fortran run-time errors. Deal with these and then repeat.
5. When all the debug cases have run successfully, you can compile the release versions of FDS (with and without OpenMP), clean the `Verication` folder again, cd to the `scripts` folder, and issue `./Run_FDS_Cases.sh -q firebot` which will run the cases in release mode. This takes a few hours. 
6. When the cases are done, run a few cases to test the restart feature with the command `./Run_FDS_Cases.sh -r`. These few cases take less than a minute to run.
7. Run the Matlab script in `Utilities/Matlab` called `FDS_verification_script.m`. This takes 10 to 15 minutes
8. When the Matlab script completes, cd to `Manuals/FDS_Verification_Guide/SCRIPT_FIGURES/Scatterplots` and open `verification_scatterplot_output.csv` using a spreadsheet editor and look for cases that have failed. Correct these and then repeat the process.

File: cable_11_insulation_mcc_exp.csv
Temperature (C),HRR (W/g)
99.935,-1.928
99.868,-7.0395
99.766,-8.6313
99.817,-7.8014
99.993,-3.9903
100.32,-2.1573
100.68,-1.8611
101.2,-1.7725
101.82,-1.3681
102.55,-1.2088
103.31,-1.4124
104.2,-1.3029
105.09,-1.1421
106.11,-0.87023
107.19,-0.68394
108.35,-0.52596
109.57,0.016346
110.86,-0.21572
112.24,-0.40174
113.63,0.13398
115.11,0.35795
116.6,0.47445
118.17,0.62434
119.75,0.6449
121.4,0.52794
123.09,0.51533
124.8,0.22206
126.55,0.2351
128.32,0.18253
130.1,0.5098
131.96,0.22525
133.84,0.044328
135.74,0.73306
137.68,0.52783
139.59,0.08928
141.55,0.55166
143.53,0.25856
145.51,0.23351
147.5,0.23713
149.57,0.29425
151.57,0.64561
153.66,0.65614
155.7,0.82587
157.77,0.52784
159.86,0.56639
161.97,0.52953
164.11,0.73978
166.28,0.78575
168.43,0.9858
170.51,0.82666
172.71,0.46773
174.83,0.46063
176.99,0.2207
179.11,0.43945
181.35,0.5289
183.49,0.29823
185.65,0.39037
187.89,0.13757
190.07,0.007148
192.28,-0.12889
194.52,0.45227
196.69,0.89713
198.89,1.1183
201.08,1.2595
203.31,0.83915
205.57,0.87086
207.76,1.0073
209.96,0.52646
212.15,0.42882
214.35,0.16398
216.57,0.2247
218.76,0.64297
220.94,0.74257
223.18,0.32179
225.28,0.47504
227.48,0.62425
229.67,0.47967
231.86,0.60602
234,0.73432
236.19,0.77878
238.36,0.45253
240.52,0.41547
242.7,0.79505
244.82,0.73201
247.03,0.75489
249.19,0.95701
251.27,0.92665
253.45,0.89622
255.54,1.0478
257.69,1.16
259.78,0.93647
261.84,1.0408
263.99,1.1969
266.14,1.2822
268.23,1.3458
270.31,1.1895
272.46,1.1346
274.49,1.6526
276.59,1.6889
278.65,2.094
280.71,2.0523
282.76,2.1876
284.78,2.2377
286.85,2.1447
288.9,2.47
290.96,2.5332
292.97,2.8684
295,2.8613
297.02,2.8993
299.04,3.2374
301.02,3.2884
303.07,3.6747
305.07,3.9792
307.04,4.2433
309.07,4.4833
311.06,4.72
313.04,4.9688
315.05,4.8321
317.07,5.3402
319.02,5.6137
321.07,5.3723
323.03,5.7045
325.04,5.6468
327.08,5.6094
329.09,6.1236
331.04,6.3613
333.01,6.0074
335,5.7342
337,6.3856
338.94,8.1884
340.95,10.866
342.94,14.393
344.92,18.942
346.85,22.894
348.78,26.917
350.76,30.623
352.74,34.789
354.73,37.525
356.74,38.699
358.7,37.848
360.67,35.324
362.65,32.181
364.69,28.947
366.67,25.202
368.65,21.908
370.63,18.878
372.63,16.438
374.59,15.016
376.6,13.188
378.6,11.968
380.59,11.388
382.57,11.198
384.54,10.455
386.55,10.199
388.55,10.511
390.5,10.937
392.52,10.568
394.5,10.857
396.53,11.591
398.48,12.425
400.48,12.442
402.52,13.681
404.53,14.497
406.61,15.438
408.61,16.095
410.57,17.584
412.61,19.296
414.57,21.091
416.55,23.483
418.55,25.999
420.52,30.111
422.51,35.872
424.5,41.75
426.49,47.481
428.49,52.372
430.49,57.241
432.44,62.994
434.44,68.513
436.46,71.686
438.41,69.256
440.43,68.216
442.44,74.363
444.48,82.181
446.52,90.781
448.55,103.14
450.54,116.07
452.57,131.05
454.57,146.98
456.58,164.5
458.58,186.91
460.57,207.8
462.6,233.6
464.57,261.22
466.55,290.4
468.55,320.3
470.52,352.87
472.51,382.96
474.47,413.15
476.44,446.7
478.41,481.29
480.42,508.28
482.41,527.51
484.38,542.77
486.4,551.36
488.36,547.37
490.32,535.59
492.33,519.18
494.34,492.85
496.32,454.78
498.34,404.85
500.29,345.21
502.27,278.38
504.22,209.02
506.31,143.07
508.28,86.372
510.3,43.432
512.34,18.047
514.38,5.7607
516.36,1.0446
518.4,0.45617
520.45,0.58663
522.42,0.57684
524.52,0.6962
526.5,0.67099
528.49,0.70885
530.48,0.34654
532.52,0.69307
534.52,0.62863
536.52,0.44701
538.44,0.46837
540.46,0.41238
542.43,0.34352
544.37,0.31632
546.39,0.12937
548.32,-0.19068
550.32,-0.18026
552.3,-0.076287
554.27,-0.53004
556.28,-0.49194
558.2,-0.18353
560.17,-0.28443
562.24,-0.19942
564.16,-0.043259
566.22,0.07986
568.11,-0.07417
570.04,0.18778
572.06,0.1119
574.07,-0.029918
576.09,-0.18373
578,-0.19544
580.06,-0.14914
582.07,0.20115
584,-0.039837
585.92,-0.40358
587.93,-0.44133
589.91,-0.0074747
591.92,-0.16616
593.85,0.063919
595.84,0.038626
597.81,-0.11427
598.3,0

File: cable_11_jacket_mcc_exp.csv
Temperature (C),HRR (W/g)
99.094,-1.542
99.15,-3.5621
99.272,-3.9305
99.501,-2.5501
99.93,-0.7146
100.41,-0.10216
101.03,-0.055473
101.72,0.12794
102.52,0.27799
103.38,0.29387
104.33,0.19504
105.34,0.218
106.42,0.21959
107.58,0.064349
108.79,0.46143
110.07,0.66201
111.41,0.4044
112.77,0.48528
114.25,0.73307
115.75,0.67321
117.29,0.41866
118.85,0.5566
120.49,0.81804
122.24,0.66419
123.92,0.89496
125.67,0.99316
127.47,0.74435
129.25,0.99011
131.08,0.9557
133,1.0896
134.93,1.3143
136.82,1.2268
138.8,1.2933
140.82,1.5582
142.74,1.3972
144.74,1.3435
146.77,1.7371
148.83,1.7231
150.89,1.7943
152.92,1.8298
155.04,1.8138
157.12,2.0045
159.24,2.3283
161.35,2.3724
163.55,2.5597
165.7,2.8361
167.79,2.8175
169.97,3.1753
172.21,3.3498
174.31,3.6151
176.53,3.709
178.75,3.8628
180.93,4.1415
183.15,4.4154
185.33,4.8531
187.53,5.3145
189.73,5.7088
191.95,5.9857
194.2,6.224
196.38,6.5527
198.61,6.7684
200.85,6.9779
203.04,7.3053
205.29,7.4886
207.48,7.6902
209.72,8.0206
212,8.4165
214.2,8.8707
216.36,8.8609
218.59,9.1235
220.72,9.4041
222.96,9.6698
225.17,9.9029
227.33,10.441
229.56,10.773
231.7,11.081
233.85,11.536
236.08,11.352
238.21,11.763
240.38,12.13
242.53,12.353
244.72,12.44
246.85,12.711
249.01,12.971
251.14,12.89
253.26,13.324
255.41,13.42
257.51,13.597
259.63,13.93
261.75,14.207
263.88,14.429
265.95,14.192
268.11,14.381
270.12,14.538
272.18,14.581
274.32,14.951
276.37,15.102
278.45,14.999
280.5,15.161
282.51,15.401
284.6,15.614
286.68,15.471
288.72,15.457
290.72,15.887
292.79,16.006
294.79,16.086
296.81,16.19
298.83,16.22
300.89,16.357
302.88,16.251
304.85,16.319
306.86,16.543
308.81,16.647
310.83,16.672
312.84,16.767
314.84,17.064
316.81,17.25
318.76,17.682
320.76,17.549
322.78,17.588
324.75,18.02
326.78,17.844
328.74,16.117
330.74,9.6609
332.77,-5.7054
334.78,-13.69
336.85,16.69
338.95,88.87
341.15,219.5
343.32,314.84
345.56,349.1
347.6,268.96
349.68,105.83
351.7,30.519
353.67,9.4046
355.63,4.9086
357.59,4.9917
359.48,6.2482
361.4,7.355
363.25,7.6362
365.18,7.9038
367.12,7.9693
368.96,7.6708
370.83,7.6067
372.74,7.7077
374.62,7.9223
376.55,8.1592
378.44,8.3795
380.32,8.5672
382.2,8.9658
384.1,9.1941
386,9.3163
387.92,9.7672
389.85,9.994
391.75,10.442
393.66,11.044
395.63,11.614
397.57,12.44
399.56,13.286
401.49,14.148
403.47,14.895
405.44,15.801
407.42,16.618
409.41,17.36
411.4,18.297
413.38,19.434
415.34,20.675
417.39,22.078
419.37,23.299
421.34,24.55
423.31,25.876
425.38,27.403
427.36,28.85
429.36,30.238
431.36,31.553
433.35,32.781
435.37,33.867
437.39,34.86
439.34,36.064
441.33,36.902
443.35,37.756
445.41,38.384
447.41,39.025
449.41,39.552
451.36,39.43
453.4,39.659
455.39,39.473
457.37,38.955
459.38,38.169
461.35,37.289
463.39,36.555
465.34,35.064
467.35,34.058
469.32,32.627
471.34,31.118
473.33,29.253
475.36,27.396
477.33,25.387
479.38,23.275
481.34,21.34
483.39,19.205
485.37,17.185
487.36,14.97
489.4,12.712
491.37,10.905
493.38,8.9205
495.36,7.2452
497.39,6.341
499.34,5.4551
501.31,5.067
503.32,4.4751
505.3,3.8757
507.29,3.7993
509.29,3.3825
511.31,3.0913
513.32,2.9614
515.35,2.4731
517.35,2.1284
519.34,1.7529
521.36,1.7289
523.38,1.5537
525.43,1.446
527.4,1.5229
529.39,1.2432
531.43,1.2619
533.39,1.1459
535.42,1.2485
537.41,1.1419
539.41,1.0132
541.39,0.98188
543.36,0.84481
545.38,0.82581
547.37,0.48422
549.38,0.57234
551.37,0.58877
553.37,0.74503
555.37,0.54324
557.3,0.56187
559.31,0.5391
561.35,0.44542
563.34,0.38606
565.34,0.17317
567.32,0.19899
569.29,0.20774
571.28,0.33931
573.29,0.61025
575.26,0.71022
577.24,0.66999
579.23,0.53933
581.32,0.36087
583.29,0.37972
585.28,0.24718
587.23,0.28443
589.28,0.23979
591.28,0.19706
593.25,0.10389
595.22,0.12677
597.23,0.1009
598.23,0

File: cable_23_insulation_mcc_exp.csv
Temperature (C),HRR (W/g)
99.931,-1.926
100.05,-4.6138
100.23,-4.9739
100.5,-2.8038
101.01,-0.15747
101.54,0.26319
102.23,0.62637
102.97,0.58933
103.81,0.57171
104.69,0.50588
105.66,0.4028
106.71,0.83338
107.86,0.59678
109.06,0.83224
110.26,1.1267
111.6,0.82096
112.97,0.93664
114.36,0.79806
115.87,1.1537
117.36,1.1518
118.95,1.1665
120.51,1.5842
122.22,1.7191
123.93,1.628
125.63,1.572
127.42,1.6021
129.15,1.9203
130.96,1.5129
132.88,1.492
134.72,1.5606
136.69,1.951
138.58,1.9148
140.54,2.0433
142.5,2.1601
144.45,1.9719
146.46,1.7609
148.53,1.8261
150.57,1.7062
152.63,1.6304
154.71,1.6832
156.79,1.7936
158.9,1.8254
161.03,1.8647
163.17,1.8961
165.36,2.0964
167.48,2.0976
169.63,2.1252
171.8,1.7959
173.95,1.6923
176.17,1.8163
178.35,1.8496
180.54,2.067
182.69,1.9522
184.9,2.1298
187.1,2.1415
189.31,2.2117
191.58,2.1994
193.79,2.3948
195.99,2.1076
198.22,2.3102
200.42,2.351
202.6,2.6363
204.85,2.6474
207.09,2.6269
209.29,2.6037
211.48,2.6698
213.69,2.6003
215.89,2.489
218.06,2.6028
220.23,2.6155
222.41,2.5639
224.58,2.7755
226.77,2.7565
228.94,2.9043
231.11,3.0751
233.28,3.2078
235.41,2.9179
237.57,3.0331
239.71,2.9067
241.88,2.7313
244.01,3.1865
246.19,3.1959
248.28,3.3313
250.42,3.2849
252.5,3.3336
254.62,3.083
256.73,3.1049
258.79,2.739
260.91,2.9745
263,2.9417
265.07,2.981
267.24,2.5925
269.27,2.4761
271.36,2.7054
273.43,2.8393
275.49,3.0148
277.51,3.1172
279.6,3.2949
281.63,3.4689
283.7,3.4542
285.73,3.6673
287.82,3.8429
289.82,4.168
291.87,4.3826
293.89,4.4764
295.92,5.0988
297.95,5.3142
299.97,5.9337
301.96,6.2063
303.99,5.9008
305.95,6.1224
307.91,6.6619
309.97,6.9574
311.92,6.8124
313.91,6.6168
315.9,6.8677
317.94,6.8478
319.91,7.33
321.89,7.5519
323.88,7.5804
325.91,7.5479
327.9,7.1255
329.9,6.1188
331.82,6.5077
333.84,8.2585
335.87,12.062
337.82,16.376
339.81,21.636
341.82,28.01
343.76,34.065
345.7,40.174
347.65,44.908
349.64,47.484
351.59,47.647
353.63,46.137
355.61,42.538
357.6,37.865
359.59,32.483
361.54,27.722
363.55,23.804
365.59,20.817
367.58,18.302
369.59,16.767
371.58,15.107
373.6,13.809
375.58,12.778
377.6,12.19
379.57,11.959
381.58,11.316
383.58,11.025
385.55,11.277
387.5,11.591
389.53,12.024
391.48,12.333
393.52,12.879
395.49,13.589
397.48,14.261
399.48,15.164
401.49,15.765
403.47,16.16
405.51,17.423
407.55,19.219
409.47,20.503
411.45,22.229
413.44,23.941
415.43,26.174
417.38,28.121
419.44,32.323
421.34,39.501
423.35,48.297
425.39,55.868
427.42,62.099
429.41,66.384
431.42,65.441
433.42,57.485
435.39,56.576
437.36,63.212
439.38,69.326
441.36,75.36
443.38,83.385
445.44,93.04
447.41,104.49
449.45,118.89
451.43,133.94
453.42,151.13
455.48,170.47
457.44,191.76
459.43,212.49
461.4,237.66
463.44,263.51
465.36,291.02
467.35,318.07
469.36,346.06
471.32,374.77
473.31,403.39
475.26,428.69
477.26,451.16
479.24,470.01
481.22,487.04
483.22,498.8
485.17,501.29
487.2,496.26
489.16,482.74
491.13,460.12
493.12,427.25
495.1,383.8
497.1,330.96
499.11,271.17
501.04,208.26
503.07,146.75
505.04,94.151
507.11,53.701
509.14,26.744
511.14,12.437
513.18,6.1658
515.19,3.8671
517.16,3.5253
519.18,3.2261
521.22,2.923
523.25,2.6334
525.21,2.408
527.21,2.4934
529.2,2.6938
531.2,2.1381
533.18,2.1011
535.13,2.1871
537.18,2.161
539.17,2.0916
541.15,2.2106
543.09,1.8459
545.07,1.9458
547.05,1.7036
549.07,1.6793
551.02,1.4373
553.04,1.1711
554.97,1.3087
556.97,1.047
558.96,0.90266
560.96,0.84782
562.94,0.8538
564.93,0.99864
566.92,1.241
568.88,1.0938
570.84,1.1376
572.81,0.7897
574.81,0.91399
576.78,1.2473
578.76,1.0234
580.77,0.80143
582.78,0.74748
584.74,0.43389
586.73,0.82854
588.7,0.76911
590.75,0.68459
592.69,0.48604
594.69,0.33923
596.67,0.15324
598.14,0

File: cable_23_jacket_mcc_exp.csv
Temperature (C),HRR (W/g)
99.824,-1.794
99.907,-4.4099
100.14,-4.2418
100.62,-1.1091
101.27,0.1551
102.07,0.38006
103.08,0.60939
104.08,0.55779
105.33,0.6124
106.66,0.88702
108.08,0.86638
109.6,1.126
111.23,1.2549
113.02,1.0922
114.78,1.1884
116.74,1.362
118.73,1.4286
120.74,1.3456
122.92,1.4246
125.06,1.538
127.33,1.6181
129.67,1.5162
131.98,1.7453
134.36,1.7197
136.77,1.9429
139.21,1.6297
141.69,1.8176
144.18,2.028
146.73,2.2836
149.26,2.263
151.86,2.58
154.48,2.5705
157.08,2.7189
159.72,2.7262
162.37,2.892
165.07,3.2128
167.75,3.4353
170.42,3.7489
173.13,3.951
175.83,3.9467
178.56,4.1988
181.28,4.5807
184,4.623
186.76,4.9291
189.49,5.15
192.23,5.5779
194.99,5.8224
197.79,6.0802
200.57,6.3132
203.33,6.5768
206.14,6.9245
208.86,7.1359
211.62,7.5778
214.41,8.0793
217.18,8.4544
219.9,8.7081
222.65,8.7765
225.35,8.8277
228.07,9.6712
230.8,9.8616
233.51,10.11
236.25,10.598
238.92,10.963
241.62,11.114
244.29,11.431
247.02,11.816
249.69,11.873
252.35,12.362
254.97,12.69
257.66,13.019
260.29,13.211
262.93,13.298
265.57,13.359
268.22,13.85
270.85,14.154
273.42,14.58
276.05,15.001
278.6,15.136
281.17,15.229
283.73,15.337
286.33,15.37
288.88,15.481
291.41,15.513
293.95,15.654
296.54,15.714
299.05,15.626
301.58,15.605
304.1,15.679
306.55,15.78
309.06,15.918
311.55,15.901
314.05,15.863
316.54,16.237
319.05,16.367
321.56,17.005
324.03,17.365
326.55,16.582
329.03,10.926
331.58,-5.839
334.12,-25.708
336.76,65.022
339.45,258.93
342.12,402.37
344.67,260.11
347.2,65.673
349.7,13.628
352.24,4.3898
354.6,5.013
356.99,6.6171
359.37,7.6199
361.81,7.7928
364.19,7.9042
366.57,7.7068
368.95,7.7474
371.38,7.6966
373.77,8.0313
376.13,8.1159
378.58,8.2932
380.98,8.851
383.4,9.3474
385.83,9.6589
388.24,10.416
390.63,10.909
393.11,11.778
395.57,12.493
398.02,13.413
400.48,14.275
402.98,15.61
405.47,16.793
407.97,17.94
410.44,18.989
412.93,20.289
415.48,21.54
417.97,22.663
420.42,24.182
422.93,25.825
425.51,27.159
427.94,28.715
430.5,30.018
433.02,30.96
435.51,31.883
438.05,32.453
440.54,32.67
443.04,32.88
445.57,32.53
448.1,31.806
450.56,30.774
453.1,29.357
455.6,27.797
458.07,25.714
460.57,23.724
463.13,21.617
465.58,19.319
468.11,16.693
470.59,14.965
473.13,13.424
475.61,12.094
478.06,10.935
480.58,9.9097
483.1,8.9106
485.66,8.2487
488.13,7.508
490.63,6.7653
493.14,6.1495
495.58,5.5031
498.05,5.0798
500.54,4.7423
503,4.3786
505.52,4.2379
508.03,3.9952
510.5,3.4179
513.01,3.2529
515.51,3.4069
518.03,2.9951
520.48,2.8651
523.06,2.7674
525.55,2.617
528.03,2.5269
530.53,2.5275
533.03,2.1557
535.49,2.0616
537.97,2.2152
540.46,1.8565
542.96,1.6987
545.39,1.4269
547.91,1.2747
550.39,1.1836
552.92,1.4582
555.39,1.4823
557.88,1.4017
560.39,1.2332
562.9,1.1909
565.44,1.1699
567.9,1.2555
570.41,1.2791
572.88,1.1516
575.37,1.3048
577.87,1.218
580.33,1.1127
582.89,1.1526
585.34,0.94082
587.81,0.94248
590.29,0.80202
592.74,0.61453
595.23,0.73978
597.71,0.8216
600.19,0.92361
602.71,0.6355
605.13,0.56499
607.62,0.33948
610.14,0.22976
612.55,0.39652
615.04,0.54097
617.52,0.68011
620.01,0.64365
622.45,0.99525
624.91,0.96577
627.36,0.80841
629.83,0.61761
632.33,0.67435
634.82,0.4597
637.26,0.49072
639.76,0.55132
642.23,0.42174
644.73,0.54772
647.17,0.61536
649.69,0.6225
652.14,0.498
654.62,0.27991
657.1,0.14945
659.55,0.53863
662.01,0.38085
664.53,0.31175
667,0.58099
669.49,0.52757
671.94,0.53365
674.42,0.65066
676.88,0.25651
679.43,0.16877
681.9,0.11705
684.36,0.14886
686.85,0.086486
689.32,-0.062415
691.82,0.076607
694.34,0.044599
696.81,0.12303
699.22,0.13898
701.68,0.14869
704.19,0.26857
706.66,0.31362
709.19,0.097382
711.66,0.14448
714.12,0.13147
716.61,0.11059
719.13,0.20162
721.66,0.023382
724.16,0.16512
726.65,0.013801
729.18,0.035044
731.61,-0.11775
734.13,-0.44557
736.61,-0.16799
739.18,0.019805
741.69,-0.16969
744.16,0.066411
746.64,-0.12344
748.1,-3.55E-15

File: cable_701_insulation_mcc_exp.csv
Temperature (C),HRR (W/g)
99.59,-2.425
99.45,-6.4925
99.33,-7.3564
99.3,-5.7048
99.511,-2.4226
99.715,-1.0192
100.1,-0.80106
100.56,-0.68521
101.22,-0.70396
101.89,-0.4089
102.69,-0.48302
103.58,-0.43385
104.5,0.025825
105.51,0.17777
106.67,0.23518
107.82,-0.073139
109.02,0.037489
110.36,0.29767
111.68,0.30318
113.11,0.28572
114.6,0.43441
116.06,0.14435
117.67,0.21376
119.26,-0.075501
120.92,0.24201
122.62,0.13484
124.35,-0.19979
126.11,-0.12616
127.94,0.17633
129.72,-0.088347
131.61,0.12318
133.5,0.25862
135.4,0.1458
137.34,0.11337
139.26,-0.01083
141.23,0.32519
143.22,0.083925
145.21,0.10347
147.26,0.024046
149.3,0.14293
151.32,-0.034029
153.35,0.076925
155.4,0.19551
157.51,0.205
159.6,0.089979
161.68,-0.16806
163.85,0.12744
166.02,0.39589
168.16,0.45483
170.32,0.3855
172.48,0.44414
174.67,0.40618
176.8,0.56739
178.97,0.42586
181.19,0.70826
183.34,0.74814
185.48,0.74315
187.7,0.79073
189.9,1.0976
192.13,1.211
194.35,1.5046
196.53,1.6878
198.73,1.6348
200.97,1.8808
203.17,2.2129
205.38,2.0475
207.62,2.2567
209.78,2.5504
212.03,2.8645
214.26,3.3929
216.42,3.6675
218.61,4.0545
220.76,4.6164
222.98,5.2029
225.16,5.6981
227.3,6.3662
229.51,7.19
231.67,7.5415
233.8,8.6808
235.99,9.5847
238.17,10.589
240.28,11.626
242.42,12.619
244.55,13.909
246.76,14.969
248.9,15.979
250.99,17.007
253.13,18.093
255.23,19.005
257.34,20.637
259.41,21.892
261.55,23.116
263.63,24.346
265.75,25.177
267.86,24.929
269.89,24.389
271.97,27.761
274.04,48.072
276.05,86.27
278.09,145.18
280.12,195.54
282.1,215.28
284.13,216.84
286.16,210.93
288.17,202.97
290.18,196.21
292.16,190.21
294.12,183.88
296.14,177.69
298.11,169.61
300.11,159.85
302.12,148.73
304.06,135.66
306.07,121.18
308.08,105.04
310.02,89.674
312.03,76.443
314.02,66.153
316.07,57.423
318.06,51.208
320.05,46.566
322.05,43.388
324.07,39.835
326.15,35.895
328.14,32.004
330.15,27.691
332.15,23.435
334.2,19.943
336.21,17.136
338.23,14.306
340.22,12.324
342.21,10.35
344.22,9.039
346.23,8.2374
348.21,7.1151
350.2,6.3358
352.19,5.9075
354.2,5.5106
356.2,5.2932
358.18,5.301
360.22,4.8378
362.14,4.7876
364.14,4.7671
366.23,4.665
368.23,4.6536
370.23,4.787
372.21,4.9997
374.22,5.349
376.22,5.4046
378.25,5.2275
380.23,5.1053
382.2,5.5803
384.23,6.0592
386.17,6.3368
388.15,6.8925
390.16,7.4258
392.1,7.8854
394.13,8.4474
396.1,9.2684
398.06,9.9605
400.04,10.703
402.07,11.298
404.05,12.206
406.08,12.983
408.05,14.342
410.03,15.54
412.01,16.786
414,18.122
415.96,19.808
417.96,21.386
419.93,23.304
421.91,25.27
423.88,27.331
425.93,29.843
427.92,32.234
429.91,35.178
431.85,38.108
433.87,40.941
435.84,44.043
437.77,47.145
439.75,50.261
441.73,52.972
443.71,56.375
445.74,59.176
447.69,62.241
449.64,63.828
451.65,65.025
453.61,65.553
455.55,65.689
457.54,64.853
459.53,63.993
461.51,62.91
463.48,60.802
465.44,58.509
467.38,56.421
469.36,54.092
471.38,51.725
473.38,49.261
475.33,46.763
477.32,44.114
479.32,41.526
481.31,38.596
483.33,36.155
485.35,34.031
487.34,31.471
489.34,29.144
491.29,26.708
493.31,24.581
495.31,22.41
497.29,20.256
499.25,18.465
501.23,16.771
503.21,15.144
505.2,13.537
507.2,12.378
509.21,11.048
511.18,10.382
513.17,9.4035
515.15,8.3593
517.2,7.678
519.22,7.2791
521.19,6.7931
523.24,6.2296
525.23,5.6333
527.26,5.3212
529.23,4.7482
531.21,4.167
533.23,3.6432
535.23,3.3376
537.21,3.3735
539.2,3.01
541.2,2.6076
543.18,2.5064
545.16,2.5562
547.16,2.3317
549.14,2.1526
551.15,1.8448
553.13,1.6486
555.08,1.389
557.07,1.4937
559.05,1.4834
561.1,1.29
563.07,1.4241
565.12,1.2057
567.07,0.91399
569.05,1.0538
571.06,0.73614
573.06,0.90357
575.04,0.86732
577.03,0.69008
579.01,0.015794
581.06,0.1475
583.06,-0.076175
585.07,0.022241
587.05,0.010065
589.03,-0.020093
590.98,-0.21584
593,-0.082675
594.92,-0.36582
596.91,-0.047174
598.42,0

File: cable_701_jacket_mcc_exp.csv
Temperature (C),HRR (W/g)
100.14,0.283
100.2,-3.1234
100.31,-4.1671
100.48,-2.6901
100.85,-0.9463
101.32,-0.11292
101.87,0.46252
102.57,0.67289
103.23,0.67533
104.08,0.81428
104.96,1.0911
105.94,1.0355
106.96,0.9683
108.11,1.1714
109.3,1.3152
110.56,1.4728
111.91,1.6439
113.31,1.4751
114.7,1.6051
116.18,1.8654
117.77,1.6793
119.37,1.6406
120.97,1.5779
122.68,1.5833
124.4,1.5551
126.16,1.646
127.93,1.4923
129.72,1.4976
131.59,1.4936
133.44,1.5407
135.33,1.5398
137.2,1.4958
139.16,1.6063
141.1,1.4695
143.07,1.3666
145.03,1.3663
147.09,1.1832
149.1,1.249
151.15,1.2253
153.18,1.0954
155.26,1.0199
157.35,1.0777
159.42,1.0634
161.48,1.0553
163.69,0.98805
165.78,0.83882
167.93,1.0348
170.05,1.0047
172.24,1.3069
174.36,1.309
176.54,1.4657
178.68,1.4
180.88,1.3859
183.06,1.4296
185.24,1.4694
187.44,1.7366
189.6,1.8147
191.88,2.223
194.02,1.9652
196.24,2.2145
198.44,2.3205
200.7,2.2257
202.92,2.2701
205.16,2.5474
207.39,2.6096
209.61,2.6379
211.82,2.7797
214.01,3.1421
216.23,3.5663
218.41,3.9839
220.6,4.4355
222.79,4.8009
224.99,5.1997
227.15,5.7793
229.31,6.2887
231.51,6.9697
233.7,7.5493
235.86,8.2048
238.03,8.7969
240.22,9.7301
242.35,10.534
244.52,11.281
246.71,12.142
248.83,13.119
250.94,14.241
253.07,15.357
255.26,16.48
257.34,17.527
259.44,19.027
261.55,20.574
263.67,23.131
265.75,27.086
267.85,32.181
269.92,38.715
271.97,46.953
274.02,57.471
276.03,69.971
278.09,82.198
280.17,86.591
282.19,89.472
284.25,94.68
286.27,101.6
288.32,110.37
290.35,119.03
292.37,126.96
294.36,133.04
296.42,137.49
298.41,140.66
300.42,143.48
302.39,145.57
304.4,147.36
306.39,149.23
308.38,150.74
310.38,152.34
312.31,153.63
314.34,155.13
316.31,156.9
318.29,157.37
320.26,155.99
322.21,152.78
324.24,145.28
326.26,134.58
328.26,120.82
330.25,104.77
332.31,87.705
334.27,71.005
336.3,56.325
338.34,44.75
340.36,35.038
342.39,27.334
344.37,21.533
346.34,17.35
348.28,14.288
350.38,11.955
352.39,10.409
354.41,9.0208
356.44,7.8469
358.49,7.0445
360.53,6.555
362.5,6.0641
364.55,5.5826
366.58,5.4017
368.6,5.6731
370.59,5.5196
372.58,5.7431
374.58,5.8481
376.63,6.0045
378.6,6.0659
380.59,6.2941
382.58,6.6656
384.57,7.2193
386.58,7.838
388.62,8.3218
390.57,8.9956
392.55,9.8255
394.52,10.305
396.49,11.204
398.51,12.295
400.49,13.357
402.5,14.395
404.5,15.688
406.5,17.337
408.45,18.97
410.46,20.662
412.42,22.484
414.39,24.224
416.39,25.953
418.38,28.388
420.34,30.708
422.29,33.028
424.31,35.391
426.34,37.92
428.32,40.136
430.28,42.47
432.29,45.581
434.28,48.42
436.27,51.239
438.28,53.74
440.24,55.821
442.24,57.769
444.24,59.484
446.25,60.925
448.22,62.171
450.2,62.162
452.17,61.963
454.21,61.335
456.2,60.465
458.19,59.853
460.15,58.907
462.15,57.806
464.06,56.454
466.12,54.8
468.1,53.267
470.12,52.059
472.08,50.677
474.12,49.513
476.15,47.912
478.12,46.477
480.08,44.769
482.14,42.722
484.15,40.549
486.16,38.411
488.16,35.977
490.16,33.678
492.12,31.218
494.14,28.744
496.19,26.493
498.18,24.27
500.13,22.204
502.12,20.008
504.13,17.806
506.11,16.12
508.09,14.371
510.13,12.83
512.11,11.455
514.14,10.257
516.14,9.2392
518.1,8.3146
520.11,7.4534
522.14,6.7623
524.15,6.1003
526.11,5.4459
528.14,5.0068
530.15,4.5276
532.1,4.1394
534.13,3.6726
536.15,3.3641
538.11,3.1426
540.14,2.8918
542.09,2.4946
544.06,2.4246
546.03,2.206
548.03,1.9999
550,1.6781
552.02,1.5246
554.02,1.2737
556,1.2457
558.01,1.1893
560.02,1.1882
562.03,0.93609
564.07,0.75984
566.05,0.68539
568.06,0.42935
570.03,0.45247
572.01,0.46731
573.98,0.44561
575.98,0.33563
577.96,0.20258
579.95,0.11006
581.97,-0.057622
583.99,-0.17602
585.96,-0.22515
587.94,-0.11313
589.92,-0.011293
591.94,-0.17901
593.89,-0.11815
595.89,-0.19098
597.89,-0.12385
598.38,0