Folder: fds/Verification/Pyrolysis (part 2)

File: tga_analysis_exact.csv
s,C,g/g,g/g,g/g,g/g,g/g,1/s,1/s,1/s,1/s,1/s,W/g,W/g
Time,Temp,Total Mass,component 1 Mass,water Mass,component 2 Mass,residue Mass,Total MLR,component 1 MLR,water MLR,component 2 MLR,residue MLR,MCC,DSC
 0.01, 20.0007, 1, 0.9, 0.0999997, 1.82818e-28, 0.0000000E+000, 3.05029e-05, 4.57044e-26, 3.05029e-05,-1.82818e-26, 0.0000000E+000, 4.11021e-22, 0.336692
 156, 32.9999, 0.993907, 0.9, 0.0939073, 6.14507e-23, 0.0000000E+000, 4.84847e-05, 4.43963e-24, 4.84847e-05,-1.77585e-24, 0.0000000E+000, 3.99257e-20, 0.236466
 312, 45.9998, 0.984639, 0.9, 0.0846387, 4.50799e-21, 0.0000000E+000, 7.08654e-05, 2.97143e-22, 7.08654e-05,-1.18857e-22, 0.0000000E+000, 2.67222e-18, 0.29052
 468, 58.9998, 0.971761, 0.9, 0.0717607, 2.35008e-19, 0.0000000E+000, 9.38161e-05, 1.43113e-20, 9.38161e-05,-5.72453e-21, 0.0000000E+000, 1.28702e-16, 0.343452
 624, 71.9998, 0.955717, 0.9, 0.0557173, 9.12098e-18, 0.0000000E+000, 0.000109984, 5.14798e-19, 0.000109984,-2.05919e-19, 0.0000000E+000, 4.62959e-15, 0.376508
 780, 84.9998, 0.938258, 0.9, 0.0382585, 2.72153e-16, 0.0000000E+000, 0.000110669, 1.42771e-17, 0.000110669,-5.71085e-18, 0.0000000E+000, 1.28394e-13, 0.368864
 936, 97.9998, 0.922229, 0.9, 0.0222287, 6.41736e-15, 0.0000000E+000, 9.17375e-05, 3.13733e-16, 9.17375e-05,-1.25493e-16, 0.0000000E+000, 2.82141e-12, 0.312546
 1092, 111, 0.910347, 0.9, 0.0103466, 1.22465e-13, 0.0000000E+000, 5.94734e-05, 5.59317e-15, 5.94734e-05,-2.23727e-15, 0.0000000E+000, 5.02995e-11, 0.225811
 1248, 124, 0.90361, 0.9, 0.00361049, 1.93094e-12, 0.0000000E+000, 2.82855e-05, 8.25752e-14, 2.82855e-05,-3.30301e-14, 0.0000000E+000, 7.426e-10, 0.145428
 1404, 137, 0.900873, 0.9, 0.000872735, 2.56139e-11, 0.0000000E+000, 9.1376e-06, 1.02783e-12, 9.1376e-06,-4.11133e-13, 0.0000000E+000, 9.24333e-09, 0.0973774
 1560, 150, 0.900133, 0.9, 0.000133196, 2.90418e-10, 3.90093e-36, 1.83088e-06, 1.09574e-11, 1.83087e-06,-4.38297e-12,-1.70163e-37, 9.85404e-08, 0.0794151
 1716, 163, 0.900012, 0.9, 1.15313e-05, 2.85418e-09, 2.88272e-33, 2.04808e-07, 1.01444e-10, 2.04747e-07,-4.05775e-11,-1.18429e-34, 9.12285e-07, 0.0754866
 1872, 176, 0.9, 0.9, 5.01171e-07, 2.46161e-08, 1.4583e-30, 1.18212e-08, 8.25643e-10, 1.13258e-08,-3.30257e-10,-5.65237e-32, 7.42503e-06, 0.0750272
 2028, 189, 0.9, 0.899999, 9.52843e-09, 1.88366e-07, 5.21369e-28, 3.85367e-09, 5.97217e-09, 2.7037e-10,-2.38887e-09,-1.90979e-29, 5.37078e-05, 0.0750068
 2184, 202, 0.899998, 0.899997, 6.79689e-11, 1.29144e-06, 1.3553e-25, 2.32618e-08, 3.87657e-08, 2.39165e-12,-1.55063e-08,-4.69915e-27, 0.000348621, 0.0750404
 2340, 215, 0.899988, 0.89998, 1.53544e-13, 8.00257e-06, 2.62746e-23, 1.3666e-07, 2.27767e-07, 6.62371e-15,-9.11068e-08,-8.636e-25, 0.00204831, 0.0752379
 2496, 228, 0.899932, 0.899887, 9.12469e-17, 4.517e-05, 3.88613e-21, 7.32401e-07, 1.22067e-06, 4.77511e-18,-4.88268e-07,-1.21254e-22, 0.0109775, 0.0762681
 2652, 241, 0.899649, 0.899415, 7.9895e-19, 0.000233842, 4.47514e-19, 3.60413e-06, 6.00689e-06, 0.0000000E+000,-2.40276e-06,-1.32724e-20, 0.0540201, 0.0811969
 2808, 254, 0.898325, 0.897209, 7.97866e-19, 0.00111654, 4.08479e-17, 1.63632e-05, 2.7272e-05, 0.0000000E+000,-1.09088e-05,-1.15272e-18, 0.245258, 0.102955
 2964, 267, 0.892605, 0.887675, 7.92643e-19, 0.0049299, 2.99798e-15, 6.84989e-05, 0.000114165, 0.0000000E+000,-4.56659e-05,-8.05122e-17, 1.02669, 0.19126
 3120, 280, 0.870015, 0.850025, 7.72112e-19, 0.0199899, 1.78005e-13, 0.000259338, 0.000432229, 0.0000000E+000,-0.000172892,-4.5356e-15, 3.88705, 0.512226
 3276, 292.999, 0.792511, 0.720851, 7.03636e-19, 0.0716596, 8.39674e-12, 0.000816315, 0.00136052, 0.0000000E+000,-0.00054421,-2.00167e-13, 12.2352, 1.44144
 3432, 305.999, 0.599693, 0.399488, 5.31932e-19, 0.200205, 2.88898e-10, 0.00158319, 0.00263865, 0.0000000E+000,-0.00105546,-6.15082e-12, 23.7294, 2.70049
 3588, 318.999, 0.392498, 0.0541636, 3.48508e-19, 0.338334, 5.94471e-09, 0.000711167, 0.00118528, 0.0000000E+000,-0.00047411,-1.0293e-10, 10.6592, 1.21565
 3744, 332, 0.360053, 8.83248e-05, 3.19408e-19, 0.359964, 6.80988e-08, 3.65615e-06, 6.0843e-06, 0.0000000E+000,-2.42717e-06,-9.82617e-10, 0.0547997, 0.0360428
 3900, 345, 0.359997, 2.63214e-13, 3.19408e-19, 0.359996, 5.95543e-07, 4.55564e-08, 5.44359e-14, 0.0000000E+000, 5.35957e-08,-8.03936e-09, 0.000682816, 0.0300576
 4056, 358, 0.359974, 3.19336e-19, 3.19408e-19, 0.359969, 4.66888e-06, 3.41753e-07, 0.0000000E+000, 0.0000000E+000, 4.02062e-07,-6.03093e-08, 0.00512232, 0.03042
 4212, 371, 0.359809, 3.19336e-19, 3.19408e-19, 0.359776, 3.3624e-05, 2.36238e-06, 0.0000000E+000, 0.0000000E+000, 2.77927e-06,-4.1689e-07, 0.0354082, 0.0328781
 4368, 384, 0.358732, 3.09813e-19, 3.18522e-19, 0.358509, 0.000223728, 1.50819e-05, 0.0000000E+000, 0.0000000E+000, 1.77435e-05,-2.66152e-06, 0.226054, 0.0482074
 4524, 397, 0.352228, 3.09813e-19, 3.14568e-19, 0.350856, 0.0013716, 8.79895e-05, 0.0000000E+000, 0.0000000E+000, 0.000103517,-1.55276e-05, 1.31882, 0.135269
 4680, 410, 0.31768, 2.61952e-19, 2.91398e-19, 0.310211, 0.0074683, 0.000433301, 0.0000000E+000, 0.0000000E+000, 0.000509766,-7.64649e-05, 6.49448, 0.543424
 4836, 422.999, 0.190525, 1.55018e-19, 2.08616e-19, 0.160618, 0.0299073, 0.00117196, 0.0000000E+000, 0.0000000E+000, 0.00137878,-0.000206817, 17.5658, 1.40152
 4992, 436, 0.0589895, 9.6636e-21, 1.22957e-19, 0.00586997, 0.0531195, 0.000210664, 0.0000000E+000, 0.0000000E+000, 0.000247841,-3.71761e-05, 3.15752, 0.251696
 5148, 449, 0.054, 9.6636e-21, 1.19723e-19, 8.90777e-10, 0.054, 1.48646e-10, 0.0000000E+000, 0.0000000E+000, 1.74878e-10,-2.62317e-11, 2.22797e-06, 0.0045168
 5304, 462, 0.054, 9.6636e-21, 1.19723e-19, 1.19574e-19, 0.054, 0.0000000E+000, 0.0000000E+000, 0.0000000E+000, 0.0000000E+000, 0.0000000E+000, 0.0000000E+000, 0.0044998
 5460, 475, 0.054, 9.6636e-21, 1.19723e-19, 1.19574e-19, 0.054, 0.0000000E+000, 0.0000000E+000, 0.0000000E+000, 0.0000000E+000, 0.0000000E+000, 0.0000000E+000, 0.0045001
 5616, 488, 0.054, 9.6636e-21, 1.19723e-19, 1.19574e-19, 0.054, 0.0000000E+000, 0.0000000E+000, 0.0000000E+000, 0.0000000E+000, 0.0000000E+000, 0.0000000E+000, 0.0045001
 5772, 501, 0.054, 9.6636e-21, 1.19723e-19, 1.19574e-19, 0.054, 0.0000000E+000, 0.0000000E+000, 0.0000000E+000, 0.0000000E+000, 0.0000000E+000, 0.0000000E+000, 0.0045001
 5928, 514, 0.054, 9.6636e-21, 1.19723e-19, 1.19574e-19, 0.054, 0.0000000E+000, 0.0000000E+000, 0.0000000E+000, 0.0000000E+000, 0.0000000E+000, 0.0000000E+000, 0.0045001
 6084, 527, 0.054, 9.6636e-21, 1.19723e-19, 1.19574e-19, 0.054, 0.0000000E+000, 0.0000000E+000, 0.0000000E+000, 0.0000000E+000, 0.0000000E+000, 0.0000000E+000, 0.0045001
 6240, 540, 0.054, 9.6636e-21, 1.19723e-19, 1.19574e-19, 0.054, 0.0000000E+000, 0.0000000E+000, 0.0000000E+000, 0.0000000E+000, 0.0000000E+000, 0.0000000E+000, 0.0044998
 6396, 553, 0.054, 9.6636e-21, 1.19723e-19, 1.19574e-19, 0.054, 0.0000000E+000, 0.0000000E+000, 0.0000000E+000, 0.0000000E+000, 0.0000000E+000, 0.0000000E+000, 0.0045001
 6552, 566, 0.054, 9.6636e-21, 1.19723e-19, 1.19574e-19, 0.054, 0.0000000E+000, 0.0000000E+000, 0.0000000E+000, 0.0000000E+000, 0.0000000E+000, 0.0000000E+000, 0.0044998
 6708, 579, 0.054, 9.6636e-21, 1.19723e-19, 1.19574e-19, 0.054, 0.0000000E+000, 0.0000000E+000, 0.0000000E+000, 0.0000000E+000, 0.0000000E+000, 0.0000000E+000, 0.0044998
 6864, 592, 0.054, 9.6636e-21, 1.19723e-19, 1.19574e-19, 0.054, 0.0000000E+000, 0.0000000E+000, 0.0000000E+000, 0.0000000E+000, 0.0000000E+000, 0.0000000E+000, 0.0045004
 7020, 605, 0.054, 9.6636e-21, 1.19723e-19, 1.19574e-19, 0.054, 0.0000000E+000, 0.0000000E+000, 0.0000000E+000, 0.0000000E+000, 0.0000000E+000, 0.0000000E+000, 0.0045001
 7176, 618, 0.054, 9.6636e-21, 1.19723e-19, 1.19574e-19, 0.054, 0.0000000E+000, 0.0000000E+000, 0.0000000E+000, 0.0000000E+000, 0.0000000E+000, 0.0000000E+000, 0.0045001
 7332, 631, 0.054, 9.6636e-21, 1.19723e-19, 1.19574e-19, 0.054, 0.0000000E+000, 0.0000000E+000, 0.0000000E+000, 0.0000000E+000, 0.0000000E+000, 0.0000000E+000, 0.0045004
 7488, 644, 0.054, 9.6636e-21, 1.19723e-19, 1.19574e-19, 0.054, 0.0000000E+000, 0.0000000E+000, 0.0000000E+000, 0.0000000E+000, 0.0000000E+000, 0.0000000E+000, 0.0044998
 7644, 657, 0.054, 9.6636e-21, 1.19723e-19, 1.19574e-19, 0.054, 0.0000000E+000, 0.0000000E+000, 0.0000000E+000, 0.0000000E+000, 0.0000000E+000, 0.0000000E+000, 0.0044998
 7800, 670, 0.054, 9.6636e-21, 1.19723e-19, 1.19574e-19, 0.054, 0.0000000E+000, 0.0000000E+000, 0.0000000E+000, 0.0000000E+000, 0.0000000E+000, 0.0000000E+000, 0.0045001
 7956, 683, 0.054, 9.6636e-21, 1.19723e-19, 1.19574e-19, 0.054, 0.0000000E+000, 0.0000000E+000, 0.0000000E+000, 0.0000000E+000, 0.0000000E+000, 0.0000000E+000, 0.0045001
 8112, 696, 0.054, 9.6636e-21, 1.19723e-19, 1.19574e-19, 0.054, 0.0000000E+000, 0.0000000E+000, 0.0000000E+000, 0.0000000E+000, 0.0000000E+000, 0.0000000E+000, 0.0045004
 8268, 709, 0.054, 9.6636e-21, 1.19723e-19, 1.19574e-19, 0.054, 0.0000000E+000, 0.0000000E+000, 0.0000000E+000, 0.0000000E+000, 0.0000000E+000, 0.0000000E+000, 0.0045004
 8424, 722, 0.054, 9.6636e-21, 1.19723e-19, 1.19574e-19, 0.054, 0.0000000E+000, 0.0000000E+000, 0.0000000E+000, 0.0000000E+000, 0.0000000E+000, 0.0000000E+000, 0.0045001
 8580, 735, 0.054, 9.6636e-21, 1.19723e-19, 1.19574e-19, 0.054, 0.0000000E+000, 0.0000000E+000, 0.0000000E+000, 0.0000000E+000, 0.0000000E+000, 0.0000000E+000, 0.0045001
 8736, 748, 0.054, 9.6636e-21, 1.19723e-19, 1.19574e-19, 0.054, 0.0000000E+000, 0.0000000E+000, 0.0000000E+000, 0.0000000E+000, 0.0000000E+000, 0.0000000E+000, 0.0045001
 8892, 761, 0.054, 9.6636e-21, 1.19723e-19, 1.19574e-19, 0.054, 0.0000000E+000, 0.0000000E+000, 0.0000000E+000, 0.0000000E+000, 0.0000000E+000, 0.0000000E+000, 0.00450071
 9048, 774, 0.054, 9.6636e-21, 1.19723e-19, 1.19574e-19, 0.054, 0.0000000E+000, 0.0000000E+000, 0.0000000E+000, 0.0000000E+000, 0.0000000E+000, 0.0000000E+000, 0.0045001
 9204, 787, 0.054, 9.6636e-21, 1.19723e-19, 1.19574e-19, 0.054, 0.0000000E+000, 0.0000000E+000, 0.0000000E+000, 0.0000000E+000, 0.0000000E+000, 0.0000000E+000, 0.0044995
 9360, 800, 0.054, 9.6636e-21, 1.19723e-19, 1.19574e-19, 0.054, 0.0000000E+000, 0.0000000E+000, 0.0000000E+000, 0.0000000E+000, 0.0000000E+000, 0.0000000E+000, 0.0045001

File: tga_analysis_tga.csv
s,C,g/g,1/s,W/g,W/g
Time,Temp,Mass,MLR,MCC,DSC
 12, 21.0049, 0.999627, 3.16912e-05, 5.91431e-22, 0.194464
 72, 26.0041, 0.997535, 3.81427e-05, 3.56219e-21, 0.204684
 132, 31.004, 0.995033, 4.53784e-05, 2.02192e-20, 0.221878
 192, 36.004, 0.992075, 5.33376e-05, 1.08498e-19, 0.240769
 252, 41.004, 0.98862, 6.18975e-05, 5.51888e-19, 0.26099
 312, 46.004, 0.984638, 7.08618e-05, 2.66776e-18, 0.282038
 372, 51.004, 0.980113, 7.99516e-05, 1.22837e-17, 0.30321
 432, 56.004, 0.975048, 8.8802e-05, 5.39965e-17, 0.323592
 492, 61.004, 0.96947, 9.69682e-05, 2.27069e-16, 0.342082
 552, 66.004, 0.963435, 0.000103943, 9.15284e-16, 0.357429
 612, 71.004, 0.95703, 0.000109192, 3.54294e-15, 0.368324
 672, 76.004, 0.950376, 0.000112199, 1.31928e-14, 0.373519
 732, 81.004, 0.94362, 0.000112532, 4.73354e-14, 0.371986
 792, 86.004, 0.936932, 0.000109911, 1.63903e-13, 0.363083
 852, 91.004, 0.930492, 0.000104273, 5.48501e-13, 0.346715
 912, 96.004, 0.924476, 9.58191e-05, 1.77646e-12, 0.323448
 972, 101.004, 0.919041, 8.50267e-05, 5.57562e-12, 0.294532
 1032, 106.004, 0.914306, 7.26177e-05, 1.69797e-11, 0.261817
 1092, 111.004, 0.910343, 5.94781e-05, 5.02315e-11, 0.227544
 1152, 116.004, 0.907166, 4.65396e-05, 1.44517e-10, 0.194051
 1212, 121.004, 0.904738, 3.46448e-05, 4.04777e-10, 0.163434
 1272, 126.004, 0.902976, 2.44272e-05, 1.10486e-09, 0.137249
 1332, 131.004, 0.901767, 1.62358e-05, 2.94176e-09, 0.116328
 1392, 136.004, 0.900987, 1.01214e-05, 7.64737e-09, 0.100756
 1452, 141.004, 0.900516, 5.88635e-06, 1.94267e-08, 0.089995
 1512, 146.004, 0.90025, 3.17556e-06, 4.82642e-08, 0.0831202
 1572, 151.004, 0.900112, 1.57962e-06, 1.17364e-07, 0.0790794
 1632, 156.004, 0.900046, 7.19934e-07, 2.79543e-07, 0.0769056
 1692, 161.004, 0.900017, 2.98657e-07, 6.52654e-07, 0.075842
 1752, 166.004, 0.900006, 1.12039e-07, 1.49462e-06, 0.075371
 1812, 171.004, 0.900002, 3.78683e-08, 3.35953e-06, 0.0751839
 1872, 176.004, 0.9, 1.17645e-08, 7.41641e-06, 0.075118
 1932, 181.004, 0.9, 4.05324e-09, 1.60893e-05, 0.0750979
 1992, 186.004, 0.9, 2.98086e-09, 3.43205e-05, 0.0750943
 2052, 191.004, 0.9, 4.94699e-09, 7.20247e-05, 0.0750973
 2112, 196.004, 0.899999, 9.95671e-09, 0.000148781, 0.0751054
 2172, 201.004, 0.899998, 2.021e-08, 0.000302669, 0.0751223
 2232, 206.004, 0.899997, 4.05022e-08, 0.000606668, 0.0751561
 2292, 211.004, 0.899993, 8.00237e-08, 0.00119866, 0.0752218
 2352, 216.004, 0.899986, 1.55924e-07, 0.00233556, 0.075348
 2412, 221.004, 0.899973, 2.99738e-07, 0.00448971, 0.0755869
 2472, 226.004, 0.899948, 5.68687e-07, 0.00851824, 0.0760338
 2532, 231.004, 0.8999, 1.06529e-06, 0.0159568, 0.076859
 2592, 236.004, 0.899812, 1.97096e-06, 0.0295226, 0.0783634
 2652, 241.004, 0.899649, 3.6027e-06, 0.0539641, 0.0810741
 2712, 246.004, 0.899354, 6.50764e-06, 0.0974766, 0.085899
 2772, 251.004, 0.898824, 1.16179e-05, 0.174021, 0.0943855
 2832, 256.004, 0.897884, 2.0499e-05, 0.30705, 0.109133
 2892, 261.004, 0.896237, 3.57383e-05, 0.535317, 0.134435
 2952, 266.004, 0.893384, 6.15247e-05, 0.921566, 0.177242
 3012, 271.004, 0.88851, 0.000104452, 1.56457, 0.248491
 3072, 276.004, 0.880306, 0.00017447, 2.61335, 0.364675
 3132, 281.004, 0.866745, 0.000285567, 4.27745, 0.548963
 3192, 286.004, 0.844857, 0.000454948, 6.81457, 0.829788
 3252, 291.004, 0.810653, 0.000697753, 10.4515, 1.23202
 3312, 296.003, 0.759638, 0.00101212, 15.1603, 1.75204
 3372, 301.003, 0.688642, 0.00134988, 20.2196, 2.30904
 3432, 306.003, 0.599655, 0.00158339, 23.7172, 2.69017
 3492, 311.003, 0.50454, 0.0015239, 22.8262, 2.58207
 3552, 316.003, 0.42473, 0.00108071, 16.1877, 1.83609
 3612, 321.004, 0.378241, 0.000478723, 7.1707, 0.828904
 3672, 326.004, 0.362513, 0.000102953, 1.54211, 0.201598
 3732, 331.004, 0.360115, 7.34181e-06, 0.109971, 0.0422286
 3792, 336.004, 0.36, 1.08221e-07, 0.00162102, 0.0301886
 3852, 341.004, 0.359998, 2.41774e-08, 0.000362148, 0.0300421
 3912, 346.004, 0.359996, 5.3327e-08, 0.000798775, 0.0300762
 3972, 351.004, 0.359991, 1.16623e-07, 0.00174687, 0.0301512
 4032, 356.004, 0.359981, 2.51889e-07, 0.003773, 0.0303102
 4092, 361.004, 0.359958, 5.37459e-07, 0.00805048, 0.0306436
 4152, 366.004, 0.35991, 1.13317e-06, 0.0169735, 0.0313417
 4212, 371.004, 0.359809, 2.36123e-06, 0.0353684, 0.0327788
 4272, 376.004, 0.359601, 4.86314e-06, 0.0728439, 0.0357081
 4332, 381.004, 0.359176, 9.89882e-06, 0.148272, 0.0416034
 4392, 386.004, 0.358315, 1.99039e-05, 0.298136, 0.0533139
 4452, 391.004, 0.356597, 3.94888e-05, 0.591495, 0.0762353
 4512, 396.004, 0.353217, 7.71101e-05, 1.15502, 0.120255
 4572, 401.004, 0.346689, 0.000147458, 2.20874, 0.202545
 4632, 406.004, 0.334403, 0.000273464, 4.09616, 0.349875
 4692, 411.004, 0.312182, 0.00048275, 7.23102, 0.594366
 4752, 416.004, 0.274567, 0.000783333, 11.7334, 0.94487
 4812, 421.003, 0.217803, 0.00109493, 16.4008, 1.30637
 4872, 426.003, 0.147831, 0.00117022, 17.5285, 1.3884
 4932, 431.004, 0.0873544, 0.000769685, 11.529, 0.911914
 4992, 436.004, 0.0589687, 0.000210503, 3.15308, 0.25217
 5052, 441.004, 0.0541535, 1.18556e-05, 0.177583, 0.0184157
 5112, 446.004, 0.0540003, 3.93104e-08, 0.000588823, 0.00454613
 5172, 451.004, 0.054, 8.30266e-13, 1.24364e-08, 0.00449747
 5232, 456.004, 0.054, 2.14923e-21, 3.21928e-17, 0.00450551
 5292, 461.004, 0.054, 5.80795e-37, 8.69961e-33, 0.00449928
 5352, 466.004, 0.054, 0.0000000E+000, 0.0000000E+000, 0.00449878
 5412, 471.004, 0.054, 0.0000000E+000, 0.0000000E+000, 0.0045026
 5472, 476.004, 0.054, 0.0000000E+000, 0.0000000E+000, 0.00449926
 5532, 481.004, 0.054, 0.0000000E+000, 0.0000000E+000, 0.00450158
 5592, 486.004, 0.054, 0.0000000E+000, 0.0000000E+000, 0.00450139
 5652, 491.004, 0.054, 0.0000000E+000, 0.0000000E+000, 0.00449972
 5712, 496.004, 0.054, 0.0000000E+000, 0.0000000E+000, 0.00450624
 5772, 501.004, 0.054, 0.0000000E+000, 0.0000000E+000, 0.00449672
 5832, 506.004, 0.054, 0.0000000E+000, 0.0000000E+000, 0.00450619
 5892, 511.004, 0.054, 0.0000000E+000, 0.0000000E+000, 0.00449995
 5952, 516.004, 0.054, 0.0000000E+000, 0.0000000E+000, 0.00449845
 6012, 521.004, 0.054, 0.0000000E+000, 0.0000000E+000, 0.0045045
 6072, 526.004, 0.054, 0.0000000E+000, 0.0000000E+000, 0.00449961
 6132, 531.004, 0.054, 0.0000000E+000, 0.0000000E+000, 0.0045028
 6192, 536.004, 0.054, 0.0000000E+000, 0.0000000E+000, 0.00450173
 6252, 541.004, 0.054, 0.0000000E+000, 0.0000000E+000, 0.00449933
 6312, 546.004, 0.054, 0.0000000E+000, 0.0000000E+000, 0.00450168
 6372, 551.004, 0.054, 0.0000000E+000, 0.0000000E+000, 0.00450128
 6432, 556.004, 0.054, 0.0000000E+000, 0.0000000E+000, 0.00450208
 6492, 561.004, 0.054, 0.0000000E+000, 0.0000000E+000, 0.0044976
 6552, 566.004, 0.054, 0.0000000E+000, 0.0000000E+000, 0.00450397
 6612, 571.004, 0.054, 0.0000000E+000, 0.0000000E+000, 0.00449707
 6672, 576.004, 0.054, 0.0000000E+000, 0.0000000E+000, 0.00450343
 6732, 581.004, 0.054, 0.0000000E+000, 0.0000000E+000, 0.00450011
 6792, 586.004, 0.054, 0.0000000E+000, 0.0000000E+000, 0.00450081
 6852, 591.004, 0.054, 0.0000000E+000, 0.0000000E+000, 0.00449898
 6912, 596.004, 0.054, 0.0000000E+000, 0.0000000E+000, 0.00450165
 6972, 601.004, 0.054, 0.0000000E+000, 0.0000000E+000, 0.00449961
 7032, 606.004, 0.054, 0.0000000E+000, 0.0000000E+000, 0.00450104
 7092, 611.004, 0.054, 0.0000000E+000, 0.0000000E+000, 0.00449931
 7152, 616.004, 0.054, 0.0000000E+000, 0.0000000E+000, 0.00450229
 7212, 621.004, 0.054, 0.0000000E+000, 0.0000000E+000, 0.00450065
 7272, 626.004, 0.054, 0.0000000E+000, 0.0000000E+000, 0.00450226
 7332, 631.004, 0.054, 0.0000000E+000, 0.0000000E+000, 0.00449992
 7392, 636.004, 0.054, 0.0000000E+000, 0.0000000E+000, 0.00449983
 7452, 641.004, 0.054, 0.0000000E+000, 0.0000000E+000, 0.00450167
 7512, 646.004, 0.054, 0.0000000E+000, 0.0000000E+000, 0.00450044
 7572, 651.004, 0.054, 0.0000000E+000, 0.0000000E+000, 0.00450204
 7632, 656.004, 0.054, 0.0000000E+000, 0.0000000E+000, 0.00450049
 7692, 661.004, 0.054, 0.0000000E+000, 0.0000000E+000, 0.00450047
 7752, 666.004, 0.054, 0.0000000E+000, 0.0000000E+000, 0.0045013
 7812, 671.004, 0.054, 0.0000000E+000, 0.0000000E+000, 0.00450367
 7872, 676.004, 0.054, 0.0000000E+000, 0.0000000E+000, 0.00449529
 7932, 681.004, 0.054, 0.0000000E+000, 0.0000000E+000, 0.00450674
 7992, 686.004, 0.054, 0.0000000E+000, 0.0000000E+000, 0.00450032
 8052, 691.004, 0.054, 0.0000000E+000, 0.0000000E+000, 0.00450128
 8112, 696.004, 0.054, 0.0000000E+000, 0.0000000E+000, 0.0044997
 8172, 701.004, 0.054, 0.0000000E+000, 0.0000000E+000, 0.00450158
 8232, 706.004, 0.054, 0.0000000E+000, 0.0000000E+000, 0.0045036
 8292, 711.004, 0.054, 0.0000000E+000, 0.0000000E+000, 0.00449773
 8352, 716.004, 0.054, 0.0000000E+000, 0.0000000E+000, 0.0045073
 8412, 721.004, 0.054, 0.0000000E+000, 0.0000000E+000, 0.00449591
 8472, 726.004, 0.054, 0.0000000E+000, 0.0000000E+000, 0.00450224
 8532, 731.004, 0.054, 0.0000000E+000, 0.0000000E+000, 0.00450051
 8592, 736.004, 0.054, 0.0000000E+000, 0.0000000E+000, 0.00449926
 8652, 741.004, 0.054, 0.0000000E+000, 0.0000000E+000, 0.00450423
 8712, 746.004, 0.054, 0.0000000E+000, 0.0000000E+000, 0.00449528
 8772, 751.004, 0.054, 0.0000000E+000, 0.0000000E+000, 0.00450527
 8832, 756.004, 0.054, 0.0000000E+000, 0.0000000E+000, 0.00450026
 8892, 761.004, 0.054, 0.0000000E+000, 0.0000000E+000, 0.00449836
 8952, 766.004, 0.054, 0.0000000E+000, 0.0000000E+000, 0.00450237
 9012, 771.004, 0.054, 0.0000000E+000, 0.0000000E+000, 0.00450341
 9072, 776.004, 0.054, 0.0000000E+000, 0.0000000E+000, 0.00450315
 9132, 781.004, 0.054, 0.0000000E+000, 0.0000000E+000, 0.00449598
 9192, 786.004, 0.054, 0.0000000E+000, 0.0000000E+000, 0.004502
 9252, 791.004, 0.054, 0.0000000E+000, 0.0000000E+000, 0.00450565
 9312, 796.004, 0.054, 0.0000000E+000, 0.0000000E+000, 0.00449837
 9360, 800.004, 0.054, 0.0000000E+000, 0.0000000E+000, 0.00450098

File: tga_sample_data.csv
Temp,Mass,MLR
24.1,1,0
29,1,-1.55E-05
34,1,-7.61E-06
39,1,3.72E-06
43.9,1,-8.26E-06
48.9,1,3.70E-06
53.9,1,3.35E-09
58.8,1,5.20E-08
63.8,1,-1.88E-06
68.8,1,-1.32E-05
73.7,1,2.75E-07
78.7,1,5.54E-07
83.7,1,9.39E-07
88.6,0.9997,5.26E-06
93.6,0.9998,-1.15E-06
98.6,0.9997,2.10E-06
103.5,0.9998,-1.83E-06
108.5,0.9997,1.58E-06
113.5,0.9998,-1.87E-06
118.4,0.9994,7.10E-06
123.4,0.9992,3.46E-06
128.4,0.9989,4.54E-06
133.3,0.9986,4.02E-06
138.3,0.9973,2.32E-05
143.3,0.9968,7.54E-06
148.3,0.9965,4.62E-06
153.2,0.996,8.94E-06
158.2,0.9954,1.08E-05
163.2,0.9946,1.24E-05
168.1,0.9937,1.55E-05
173.1,0.9927,1.61E-05
178.1,0.9916,1.86E-05
183,0.9903,2.23E-05
188,0.9886,2.77E-05
193,0.9869,2.94E-05
197.9,0.985,3.19E-05
202.9,0.9828,3.73E-05
207.9,0.9808,3.38E-05
212.8,0.9782,4.34E-05
217.8,0.9754,4.60E-05
222.8,0.9726,4.75E-05
227.7,0.9692,5.62E-05
232.7,0.9657,6.00E-05
237.7,0.9619,6.29E-05
242.6,0.9579,6.68E-05
247.6,0.9535,7.40E-05
252.6,0.9483,8.69E-05
257.6,0.9421,1.05E-04
262.5,0.9343,1.31E-04
267.5,0.9249,1.58E-04
272.5,0.9139,1.83E-04
277.4,0.9019,2.02E-04
282.4,0.8883,2.28E-04
287.4,0.873,2.58E-04
292.3,0.855,3.01E-04
297.3,0.8328,3.72E-04
302.3,0.8054,4.61E-04
307.2,0.7798,4.28E-04
312.2,0.7628,2.85E-04
317.2,0.7519,1.84E-04
322.1,0.744,1.31E-04
327.1,0.7388,8.82E-05
332.1,0.735,6.30E-05
337,0.7315,5.85E-05
342,0.7278,6.31E-05
347,0.7242,6.00E-05
351.9,0.7207,5.91E-05
356.9,0.7176,5.20E-05
361.9,0.7151,4.08E-05
366.9,0.7131,3.38E-05
371.8,0.7114,2.94E-05
376.8,0.7096,3.02E-05
381.8,0.7078,2.92E-05
386.7,0.7061,2.83E-05
391.7,0.7046,2.54E-05
396.7,0.7031,2.66E-05
401.6,0.7013,2.95E-05
406.6,0.6994,3.22E-05
411.6,0.6976,2.98E-05
416.5,0.6956,3.39E-05
421.5,0.6934,3.68E-05
426.5,0.6911,3.82E-05
431.4,0.6887,3.95E-05
436.4,0.6861,4.49E-05
441.4,0.6833,4.68E-05
446.3,0.6803,5.01E-05
451.3,0.6772,5.26E-05
456.3,0.674,5.24E-05
461.2,0.6704,6.09E-05
466.2,0.667,5.74E-05
471.2,0.6634,5.95E-05
476.2,0.6593,6.85E-05
481.1,0.6549,7.38E-05
486.1,0.6503,7.83E-05
491.1,0.6458,7.48E-05
496,0.642,6.48E-05
501,0.6382,6.38E-05
506,0.6348,5.60E-05
510.9,0.6311,6.31E-05
515.9,0.6262,8.22E-05
520.9,0.6201,1.02E-04
525.8,0.6126,1.25E-04
530.8,0.6056,1.17E-04
535.8,0.5992,1.08E-04
540.7,0.5942,8.48E-05
545.7,0.5905,6.18E-05
550.7,0.5881,3.92E-05
555.6,0.5863,3.12E-05
560.6,0.585,2.09E-05
565.6,0.5838,2.04E-05
570.5,0.5827,1.90E-05
575.5,0.5817,1.72E-05
580.5,0.5806,1.75E-05
585.5,0.5798,1.41E-05
590.4,0.579,1.38E-05
595.4,0.5777,2.09E-05
600.4,0.5769,1.34E-05
605.3,0.5758,1.82E-05
610.3,0.5748,1.77E-05
615.3,0.5737,1.73E-05
620.2,0.5727,1.70E-05
625.2,0.5718,1.53E-05
630.2,0.5709,1.61E-05
635.1,0.57,1.37E-05
640.1,0.5694,1.00E-05
645.1,0.5685,1.60E-05
650,0.5678,1.10E-05
655,0.567,1.37E-05
660,0.5663,1.24E-05
664.9,0.5652,1.84E-05
669.9,0.564,1.90E-05
674.9,0.5626,2.36E-05
679.8,0.5612,2.40E-05
684.8,0.5597,2.56E-05
689.8,0.5583,2.32E-05
694.8,0.5569,2.42E-05
699.7,0.5553,2.57E-05
704.7,0.5537,2.72E-05
709.7,0.5522,2.59E-05
714.6,0.551,2.00E-05
719.6,0.55,1.68E-05
724.6,0.549,1.59E-05
729.5,0.5481,1.59E-05
734.5,0.5471,1.64E-05
739.5,0.5465,1.05E-05
744.4,0.5458,1.04E-05
749.4,0.545,1.41E-05
754.4,0.5443,1.09E-05
759.3,0.5436,1.26E-05
764.3,0.543,1.07E-05
769.3,0.5424,9.15E-06
774.2,0.5418,1.04E-05
779.2,0.5411,1.20E-05
784.2,0.5404,1.11E-05
789.1,0.5399,9.36E-06
794.1,0.5393,1.01E-05
799.1,0.5387,8.95E-06
804.1,0.5382,9.28E-06
809,0.5378,6.92E-06
814,0.5371,1.04E-05
819,0.5368,6.23E-06
823.9,0.5364,5.88E-06
828.9,0.536,6.75E-06
833.9,0.5358,4.33E-06
838.8,0.5354,6.33E-06
843.8,0.5351,4.27E-06
848.8,0.5347,6.69E-06
853.7,0.5346,2.10E-06
858.7,0.5344,2.88E-06
863.7,0.5343,2.04E-06
868.6,0.5341,2.85E-06
873.6,0.5339,4.50E-06
878.6,0.534,-1.61E-06
883.5,0.5338,3.16E-06
888.5,0.5337,7.82E-07
893.5,0.5335,3.62E-06
898.4,0.5333,2.78E-06